{
  "resourceType": "Bundle", 
  "entry": [
    {
      "resource": {
        "name": [
          {
            "text": "Clever Form", 
            "use": "usual", 
            "given": [
              "Clever"
            ], 
            "family": "Form"
          }, 
          {
            "text": "Mrs. Smart Form", 
            "use": "official", 
            "prefix": [
              "Mrs."
            ], 
            "given": [
              "Smart"
            ], 
            "family": "Form"
          }
        ], 
        "extension": [
          {
            "url": "http://hl7.org/fhir/StructureDefinition/individual-pronouns", 
            "extension": [
              {
                "url": "value", 
                "valueCodeableConcept": {
                  "coding": [
                    {
                      "code": "LA29520-6", 
                      "system": "http://loinc.org", 
                      "display": "they/them/their/theirs/themselves"
                    }
                  ]
                }
              }, 
              {
                "url": "period", 
                "valuePeriod": {
                  "start": "2018-02", 
                  "end": "2022-06"
                }
              }
            ]
          }, 
          {
            "url": "http://hl7.org/fhir/StructureDefinition/individual-pronouns", 
            "extension": [
              {
                "url": "value", 
                "valueCodeableConcept": {
                  "coding": [
                    {
                      "code": "LA29519-8", 
                      "system": "http://loinc.org", 
                      "display": "she/her/her/hers/herself"
                    }
                  ]
                }
              }, 
              {
                "url": "period", 
                "valuePeriod": {
                  "start": "2022-06"
                }
              }
            ]
          }, 
          {
            "url": "http://hl7.org/fhir/StructureDefinition/individual-recordedSexOrGender", 
            "extension": [
              {
                "url": "value", 
                "valueCodeableConcept": {
                  "coding": [
                    {
                      "code": "female", 
                      "system": "http://hl7.org/fhir/administrative-gender"
                    }
                  ]
                }
              }, 
              {
                "url": "type", 
                "valueCodeableConcept": {
                  "coding": [
                    {
                      "code": "76689-9", 
                      "system": "http://loinc.org", 
                      "display": "Sex assigned at birth"
                    }
                  ]
                }
              }
            ]
          }
        ], 
        "resourceType": "Patient", 
        "text": {
          "status": "generated", 
          "div": "<div xmlns=\"http://www.w3.org/1999/xhtml\"><p style=\"border: 1px #661aff solid; background-color: #e6e6ff; padding: 10px;\"><b>Clever Form</b> female, DoB: 1968-10-11 ( Medicare Number/69514496771 (period: (?) --&gt; 2024-08))</p><hr/><table class=\"grid\"><tr><td style=\"background-color: #f3f5da\" title=\"Other Ids (see the one above)\">Other Id:</td><td colspan=\"3\">IHI/8003608833357361</td></tr><tr><td style=\"background-color: #f3f5da\" title=\"Alternate names (see the one above)\">Alt. Name:</td><td colspan=\"3\">Mrs. Smart Form(OFFICIAL)</td></tr><tr><td style=\"background-color: #f3f5da\" title=\"Ways to contact the Patient\">Contact Details:</td><td colspan=\"3\"><ul><li>ph: 0491 572 665(MOBILE)</li><li>ph: 0123456879(HOME)</li><li>4 Brisbane Street Brisbane QLD 4112 AU (HOME)</li><li>PO Box Number Brisbane QLD 4112 AU (TEMP)</li></ul></td></tr><tr><td style=\"background-color: #f3f5da\" title=\"Languages spoken\">Language:</td><td colspan=\"3\"><span title=\"Codes: {urn:ietf:bcp:47 yub}\">Yugambal</span></td></tr><tr><td style=\"background-color: #f3f5da\" title=\"Nominated Contact: Emergency Contact\">Emergency Contact:</td><td colspan=\"3\"><ul><li>Ms Phone A Friend</li><li>0987654321</li></ul></td></tr><tr><td style=\"background-color: #f3f5da\" title=\"The pronouns to use when referring to an individual in verbal or written communication.\">Individual Pronouns:</td><td colspan=\"3\"><ul><li>value: <span title=\"Codes: {http://loinc.org LA29520-6}\">they/them/their/theirs/themselves</span></li><li>period: 2018-02 --&gt; 2022-06</li></ul></td></tr><tr><td style=\"background-color: #f3f5da\" title=\"The pronouns to use when referring to an individual in verbal or written communication.\">Individual Pronouns:</td><td colspan=\"3\"><ul><li>value: <span title=\"Codes: {http://loinc.org LA29519-8}\">she/her/her/hers/herself</span></li><li>period: 2022-06 --&gt; (ongoing)</li></ul></td></tr><tr><td style=\"background-color: #f3f5da\" title=\"Recorded sex or gender (RSG) information includes the various sex and gender concepts that are often used in existing systems but are known NOT to represent a gender identity, sex parameter for clinical use, or attributes related to sexuality, such as sexual orientation, sexual activity, or sexual attraction. Examples of recorded sex or gender concepts include administrative gender, administrative sex, and sex assigned at birth.  When exchanging this concept, refer to the guidance in the [Gender Harmony Implementation Guide](http://hl7.org/xprod/ig/uv/gender-harmony/).\n\nThis extension is published in this guide to meet the short-term needs of implementers. This extension may be deprecated in a future version of this guide when there are alternative approaches available (e.g. R6 Patient resource, clinical reasoning, etc.).\">Recorded sex or gender:</td><td colspan=\"3\"><ul><li>value: <span title=\"Codes: {http://hl7.org/fhir/administrative-gender female}\">female</span></li><li>type: <span title=\"Codes: {http://loinc.org 76689-9}\">Sex assigned at birth</span></li></ul></td></tr></table></div>"
        }, 
        "address": [
          {
            "city": "Brisbane", 
            "use": "home", 
            "country": "AU", 
            "state": "QLD", 
            "postalCode": "4112", 
            "line": [
              "4 Brisbane Street"
            ]
          }, 
          {
            "city": "Brisbane", 
            "use": "temp", 
            "country": "AU", 
            "state": "QLD", 
            "postalCode": "4112", 
            "line": [
              "PO Box Number"
            ]
          }
        ], 
        "communication": [
          {
            "language": {
              "text": "Yugambal", 
              "coding": [
                {
                  "code": "yub", 
                  "system": "urn:ietf:bcp:47", 
                  "display": "Yugambal"
                }
              ]
            }
          }
        ], 
        "birthDate": "1968-10-11", 
        "contact": [
          {
            "telecom": [
              {
                "system": "phone", 
                "value": "0987654321"
              }
            ], 
            "name": {
              "text": "Ms Phone A Friend"
            }, 
            "relationship": [
              {
                "coding": [
                  {
                    "code": "C", 
                    "system": "http://terminology.hl7.org/CodeSystem/v2-0131", 
                    "display": "Emergency Contact"
                  }
                ]
              }
            ]
          }
        ], 
        "telecom": [
          {
            "use": "mobile", 
            "system": "phone", 
            "value": "0491 572 665"
          }, 
          {
            "use": "home", 
            "system": "phone", 
            "value": "0123456879"
          }
        ], 
        "meta": {
          "profile": [
            "http://hl7.org.au/fhir/core/StructureDefinition/au-core-patient"
          ], 
          "source": "#2MGUQkGFZJAQlI0g", 
          "versionId": "1", 
          "lastUpdated": "2025-05-21T02:23:33.199+00:00"
        }, 
        "gender": "female", 
        "identifier": [
          {
            "type": {
              "text": "Medicare Number", 
              "coding": [
                {
                  "code": "MC", 
                  "system": "http://terminology.hl7.org/CodeSystem/v2-0203", 
                  "display": "Patient's Medicare Number"
                }
              ]
            }, 
            "system": "http://ns.electronichealth.net.au/id/medicare-number", 
            "value": "69514496771", 
            "period": {
              "end": "2024-08"
            }
          }, 
          {
            "type": {
              "text": "IHI", 
              "coding": [
                {
                  "code": "NI", 
                  "system": "http://terminology.hl7.org/CodeSystem/v2-0203", 
                  "display": "National unique individual identifier"
                }
              ]
            }, 
            "system": "http://ns.electronichealth.net.au/id/hi/ihi/1.0", 
            "value": "8003608833357361"
          }
        ], 
        "id": "repop-patient"
      }, 
      "request": {
        "url": "Patient/repop-patient", 
        "method": "PUT"
      }
    }, 
    {
      "resource": {
        "status": "in-progress", 
        "serviceType": {
          "coding": [
            {
              "code": "788007007", 
              "system": "http://snomed.info/sct", 
              "display": "General practice service"
            }
          ]
        }, 
        "participant": [
          {
            "individual": {
              "identifier": {
                "type": {
                  "coding": [
                    {
                      "code": "UPIN", 
                      "system": "http://terminology.hl7.org/CodeSystem/v2-0203"
                    }
                  ]
                }, 
                "system": "http://ns.electronichealth.net.au/id/medicare-provider-number", 
                "value": "8003619900015717"
              }, 
              "display": "Dr. Good Doctor"
            }, 
            "type": [
              {
                "coding": [
                  {
                    "code": "PPRF", 
                    "system": "http://terminology.hl7.org/CodeSystem/v3-ParticipationType", 
                    "display": "primary performer"
                  }
                ]
              }
            ]
          }
        ], 
        "resourceType": "Encounter", 
        "serviceProvider": {
          "identifier": {
            "type": {
              "text": "HPI-O", 
              "coding": [
                {
                  "code": "NOI", 
                  "system": "http://terminology.hl7.org.au/CodeSystem/v2-0203", 
                  "display": "National Organisation Identifier"
                }
              ]
            }, 
            "system": "http://ns.electronichealth.net.au/id/hi/hpio/1.0", 
            "value": "8003621566684455"
          }, 
          "display": "Good Health Clinic"
        }, 
        "period": {
          "start": "2025-05-21T02:23:33+00:00"
        }, 
        "class": {
          "code": "AMB", 
          "system": "http://terminology.hl7.org/CodeSystem/v3-ActCode", 
          "display": "ambulatory"
        }, 
        "meta": {
          "profile": [
            "http://hl7.org.au/fhir/core/StructureDefinition/au-core-encounter"
          ], 
          "source": "#2MGUQkGFZJAQlI0g", 
          "versionId": "1", 
          "lastUpdated": "2025-05-21T02:23:33.199+00:00"
        }, 
        "id": "health-check-repop-patient", 
        "subject": {
          "identifier": {
            "type": {
              "text": "Medicare Number", 
              "coding": [
                {
                  "code": "MC", 
                  "system": "http://terminology.hl7.org/CodeSystem/v2-0203", 
                  "display": "Patient's Medicare Number"
                }
              ]
            }, 
            "system": "http://ns.electronichealth.net.au/id/medicare-number", 
            "value": "69514496771"
          }, 
          "reference": "Patient/repop-patient"
        }
      }, 
      "request": {
        "url": "Encounter/health-check-repop-patient", 
        "method": "PUT"
      }
    }, 
    {
      "resource": {
        "status": "final", 
        "category": [
          {
            "coding": [
              {
                "code": "vital-signs", 
                "system": "http://terminology.hl7.org/CodeSystem/observation-category", 
                "display": "Vital Signs"
              }
            ]
          }
        ], 
        "code": {
          "coding": [
            {
              "code": "39156-5", 
              "system": "http://loinc.org", 
              "display": "Body mass index (BMI) [Ratio]"
            }
          ]
        }, 
        "resourceType": "Observation", 
        "valueQuantity": {
          "code": "kg/m2", 
          "unit": "kg/m2", 
          "value": 16.2, 
          "system": "http://unitsofmeasure.org"
        }, 
        "meta": {
          "profile": [
            "http://hl7.org.au/fhir/core/StructureDefinition/au-core-bodyweight"
          ], 
          "source": "#2MGUQkGFZJAQlI0g", 
          "versionId": "1", 
          "lastUpdated": "2025-05-21T02:23:33.199+00:00"
        }, 
        "effectiveDateTime": "2025-05-21T02:23:33+00:00", 
        "id": "bmi-repop-patient", 
        "subject": {
          "identifier": {
            "type": {
              "text": "Medicare Number", 
              "coding": [
                {
                  "code": "MC", 
                  "system": "http://terminology.hl7.org/CodeSystem/v2-0203", 
                  "display": "Patient's Medicare Number"
                }
              ]
            }, 
            "system": "http://ns.electronichealth.net.au/id/medicare-number", 
            "value": "69514496771"
          }, 
          "reference": "Patient/repop-patient"
        }
      }, 
      "request": {
        "url": "Observation/bmi-repop-patient", 
        "method": "PUT"
      }
    }, 
    {
      "resource": {
        "status": "final", 
        "category": [
          {
            "coding": [
              {
                "code": "vital-signs", 
                "system": "http://terminology.hl7.org/CodeSystem/observation-category", 
                "display": "Vital Signs"
              }
            ]
          }
        ], 
        "code": {
          "coding": [
            {
              "code": "29463-7", 
              "system": "http://loinc.org", 
              "display": "Body weight"
            }
          ]
        }, 
        "resourceType": "Observation", 
        "valueQuantity": {
          "code": "kg", 
          "unit": "kg", 
          "value": 67, 
          "system": "http://unitsofmeasure.org"
        }, 
        "meta": {
          "profile": [
            "http://hl7.org.au/fhir/core/StructureDefinition/au-core-bodyweight"
          ], 
          "source": "#2MGUQkGFZJAQlI0g", 
          "versionId": "1", 
          "lastUpdated": "2025-05-21T02:23:33.199+00:00"
        }, 
        "effectiveDateTime": "2025-05-21T02:23:33+00:00", 
        "id": "bodyweight-repop-patient", 
        "subject": {
          "identifier": {
            "type": {
              "text": "Medicare Number", 
              "coding": [
                {
                  "code": "MC", 
                  "system": "http://terminology.hl7.org/CodeSystem/v2-0203", 
                  "display": "Patient's Medicare Number"
                }
              ]
            }, 
            "system": "http://ns.electronichealth.net.au/id/medicare-number", 
            "value": "69514496771"
          }, 
          "reference": "Patient/repop-patient"
        }
      }, 
      "request": {
        "url": "Observation/bodyweight-repop-patient", 
        "method": "PUT"
      }
    }, 
    {
      "resource": {
        "status": "final", 
        "category": [
          {
            "coding": [
              {
                "code": "vital-signs", 
                "system": "http://terminology.hl7.org/CodeSystem/observation-category", 
                "display": "Vital Signs"
              }
            ]
          }
        ], 
        "code": {
          "coding": [
            {
              "code": "8302-2", 
              "system": "http://loinc.org", 
              "display": "Body height"
            }
          ]
        }, 
        "resourceType": "Observation", 
        "valueQuantity": {
          "code": "cm", 
          "unit": "cm", 
          "value": 203, 
          "system": "http://unitsofmeasure.org"
        }, 
        "meta": {
          "profile": [
            "http://hl7.org.au/fhir/core/StructureDefinition/au-core-bodyheight"
          ], 
          "source": "#2MGUQkGFZJAQlI0g", 
          "versionId": "1", 
          "lastUpdated": "2025-05-21T02:23:33.199+00:00"
        }, 
        "effectiveDateTime": "2025-05-21T02:23:33+00:00", 
        "id": "bodyheight-repop-patient", 
        "subject": {
          "identifier": {
            "type": {
              "text": "Medicare Number", 
              "coding": [
                {
                  "code": "MC", 
                  "system": "http://terminology.hl7.org/CodeSystem/v2-0203", 
                  "display": "Patient's Medicare Number"
                }
              ]
            }, 
            "system": "http://ns.electronichealth.net.au/id/medicare-number", 
            "value": "69514496771"
          }, 
          "reference": "Patient/repop-patient"
        }
      }, 
      "request": {
        "url": "Observation/bodyheight-repop-patient", 
        "method": "PUT"
      }
    }, 
    {
      "resource": {
        "status": "final", 
        "category": [
          {
            "coding": [
              {
                "code": "vital-signs", 
                "system": "http://terminology.hl7.org/CodeSystem/observation-category", 
                "display": "Vital Signs"
              }
            ]
          }
        ], 
        "code": {
          "coding": [
            {
              "code": "8280-0", 
              "system": "http://loinc.org", 
              "display": "Waist Circumference at umbilicus by Tape measure"
            }
          ]
        }, 
        "resourceType": "Observation", 
        "valueQuantity": {
          "code": "cm", 
          "unit": "cm", 
          "value": 120, 
          "system": "http://unitsofmeasure.org"
        }, 
        "meta": {
          "profile": [
            "http://hl7.org.au/fhir/core/StructureDefinition/au-core-waistcircum"
          ], 
          "source": "#2MGUQkGFZJAQlI0g", 
          "versionId": "1", 
          "lastUpdated": "2025-05-21T02:23:33.199+00:00"
        }, 
        "effectiveDateTime": "2025-05-21T02:23:33+00:00", 
        "id": "waist-circumference-repop-patient", 
        "subject": {
          "identifier": {
            "type": {
              "text": "Medicare Number", 
              "coding": [
                {
                  "code": "MC", 
                  "system": "http://terminology.hl7.org/CodeSystem/v2-0203", 
                  "display": "Patient's Medicare Number"
                }
              ]
            }, 
            "system": "http://ns.electronichealth.net.au/id/medicare-number", 
            "value": "69514496771"
          }, 
          "reference": "Patient/repop-patient"
        }
      }, 
      "request": {
        "url": "Observation/waist-circumference-repop-patient", 
        "method": "PUT"
      }
    }, 
    {
      "resource": {
        "status": "final", 
        "category": [
          {
            "coding": [
              {
                "code": "vital-signs", 
                "system": "http://terminology.hl7.org/CodeSystem/observation-category", 
                "display": "Vital Signs"
              }
            ]
          }
        ], 
        "code": {
          "coding": [
            {
              "code": "85354-9", 
              "system": "http://loinc.org", 
              "display": "Blood pressure panel with all children optional"
            }
          ]
        }, 
        "resourceType": "Observation", 
        "component": [
          {
            "valueQuantity": {
              "code": "mm[Hg]", 
              "unit": "mmHg", 
              "value": 109, 
              "system": "http://unitsofmeasure.org"
            }, 
            "code": {
              "coding": [
                {
                  "code": "8480-6", 
                  "system": "http://loinc.org", 
                  "display": "Systolic blood pressure"
                }
              ]
            }
          }, 
          {
            "valueQuantity": {
              "code": "mm[Hg]", 
              "unit": "mmHg", 
              "value": 44, 
              "system": "http://unitsofmeasure.org"
            }, 
            "code": {
              "coding": [
                {
                  "code": "8462-4", 
                  "system": "http://loinc.org", 
                  "display": "Diastolic blood pressure"
                }
              ]
            }
          }
        ], 
        "meta": {
          "profile": [
            "http://hl7.org.au/fhir/core/StructureDefinition/au-core-bloodpressure"
          ], 
          "source": "#2MGUQkGFZJAQlI0g", 
          "versionId": "1", 
          "lastUpdated": "2025-05-21T02:23:33.199+00:00"
        }, 
        "effectiveDateTime": "2025-05-21T02:23:33+00:00", 
        "id": "blood-pressure-repop-patient", 
        "subject": {
          "identifier": {
            "type": {
              "text": "Medicare Number", 
              "coding": [
                {
                  "code": "MC", 
                  "system": "http://terminology.hl7.org/CodeSystem/v2-0203", 
                  "display": "Patient's Medicare Number"
                }
              ]
            }, 
            "system": "http://ns.electronichealth.net.au/id/medicare-number", 
            "value": "69514496771"
          }, 
          "reference": "Patient/repop-patient"
        }
      }, 
      "request": {
        "url": "Observation/blood-pressure-repop-patient", 
        "method": "PUT"
      }
    }, 
    {
      "resource": {
        "status": "final", 
        "category": [
          {
            "coding": [
              {
                "code": "vital-signs", 
                "system": "http://terminology.hl7.org/CodeSystem/observation-category", 
                "display": "Vital Signs"
              }
            ]
          }
        ], 
        "code": {
          "coding": [
            {
              "code": "8867-4", 
              "system": "http://loinc.org", 
              "display": "Heart rate"
            }
          ]
        }, 
        "resourceType": "Observation", 
        "valueQuantity": {
          "code": "/min", 
          "unit": "beats/min", 
          "value": 44, 
          "system": "http://unitsofmeasure.org"
        }, 
        "meta": {
          "profile": [
            "http://hl7.org.au/fhir/core/StructureDefinition/au-core-heartrate"
          ], 
          "source": "#2MGUQkGFZJAQlI0g", 
          "versionId": "1", 
          "lastUpdated": "2025-05-21T02:23:33.199+00:00"
        }, 
        "effectiveDateTime": "2025-05-21T02:23:33+00:00", 
        "id": "heart-rate-repop-patient", 
        "subject": {
          "identifier": {
            "type": {
              "text": "Medicare Number", 
              "coding": [
                {
                  "code": "MC", 
                  "system": "http://terminology.hl7.org/CodeSystem/v2-0203", 
                  "display": "Patient's Medicare Number"
                }
              ]
            }, 
            "system": "http://ns.electronichealth.net.au/id/medicare-number", 
            "value": "69514496771"
          }, 
          "reference": "Patient/repop-patient"
        }
      }, 
      "request": {
        "url": "Observation/heart-rate-repop-patient", 
        "method": "PUT"
      }
    }, 
    {
      "resource": {
        "status": "final", 
        "category": [
          {
            "coding": [
              {
                "code": "social-history", 
                "system": "http://terminology.hl7.org/CodeSystem/observation-category", 
                "display": "Social history"
              }
            ]
          }
        ], 
        "code": {
          "coding": [
            {
              "code": "72166-2", 
              "system": "http://loinc.org", 
              "display": "Tobacco smoking status"
            }
          ]
        }, 
        "resourceType": "Observation", 
        "meta": {
          "profile": [
            "http://hl7.org.au/fhir/core/StructureDefinition/au-core-smokingstatus"
          ], 
          "source": "#2MGUQkGFZJAQlI0g", 
          "versionId": "1", 
          "lastUpdated": "2025-05-21T02:23:33.199+00:00"
        }, 
        "valueCodeableConcept": {
          "coding": [
            {
              "code": "8517006", 
              "system": "http://snomed.info/sct", 
              "display": "Former smoker"
            }
          ]
        }, 
        "effectiveDateTime": "2025-05-21T02:23:33+00:00", 
        "id": "smoking-status-repop-patient", 
        "subject": {
          "identifier": {
            "type": {
              "text": "Medicare Number", 
              "coding": [
                {
                  "code": "MC", 
                  "system": "http://terminology.hl7.org/CodeSystem/v2-0203", 
                  "display": "Patient's Medicare Number"
                }
              ]
            }, 
            "system": "http://ns.electronichealth.net.au/id/medicare-number", 
            "value": "69514496771"
          }, 
          "reference": "Patient/repop-patient"
        }
      }, 
      "request": {
        "url": "Observation/smoking-status-repop-patient", 
        "method": "PUT"
      }
    }, 
    {
      "resource": {
        "category": [
          {
            "coding": [
              {
                "code": "problem-list-item", 
                "system": "http://terminology.hl7.org/CodeSystem/condition-category", 
                "display": "Problem List Item"
              }
            ]
          }
        ], 
        "code": {
          "coding": [
            {
              "code": "700379002", 
              "system": "http://snomed.info/sct", 
              "display": "Chronic kidney disease stage 3B (disorder)"
            }
          ]
        }, 
        "onsetDateTime": "2022-05-10", 
        "severity": {
          "coding": [
            {
              "code": "24484000", 
              "system": "http://snomed.info/sct", 
              "display": "Severe"
            }
          ]
        }, 
        "extension": [
          {
            "url": "http://hl7.org/fhir/StructureDefinition/condition-related", 
            "valueReference": {
              "reference": "Goal/hpt-wnl"
            }
          }
        ], 
        "resourceType": "Condition", 
        "text": {
          "status": "extensions", 
          "div": "<div xmlns=\"http://www.w3.org/1999/xhtml\"><p><b>Generated Narrative: Condition</b><a name=\"ckd-repop-tester\"> </a></p><div style=\"display: inline-block; background-color: #d9e0e7; padding: 6px; margin: 4px; border: 1px solid #8da1b4; border-radius: 5px; line-height: 60%\"><p style=\"margin-bottom: 0px\">Resource Condition &quot;ckd-repop-tester&quot; Version &quot;5&quot; Updated &quot;2022-06-17 23:22:56+0000&quot; </p><p style=\"margin-bottom: 0px\">Information Source: #5R98DWXS6a48AGkD!</p><p style=\"margin-bottom: 0px\">Profile: <a href=\"StructureDefinition-au-core-condition.html\">AU Core Condition</a></p></div><p><b>pertains to goal</b>: <a href=\"Goal-hpt-wnl.html\">Goal/hpt-wnl</a></p><p><b>clinicalStatus</b>: Active <span style=\"background: LightGoldenRodYellow; margin: 4px; border: 1px solid khaki\"> (<a href=\"http://terminology.hl7.org/5.3.0/CodeSystem-condition-clinical.html\">Condition Clinical Status Codes</a>#active)</span></p><p><b>verificationStatus</b>: Confirmed <span style=\"background: LightGoldenRodYellow; margin: 4px; border: 1px solid khaki\"> (<a href=\"http://terminology.hl7.org/5.3.0/CodeSystem-condition-ver-status.html\">ConditionVerificationStatus</a>#confirmed)</span></p><p><b>category</b>: Problem <span style=\"background: LightGoldenRodYellow; margin: 4px; border: 1px solid khaki\"> (<a href=\"http://terminology.hl7.org/5.3.0/CodeSystem-condition-category.html\">Condition Category Codes</a>#problem-list-item &quot;Problem List Item&quot;)</span></p><p><b>severity</b>: Severe <span style=\"background: LightGoldenRodYellow; margin: 4px; border: 1px solid khaki\"> (<a href=\"https://browser.ihtsdotools.org/\">SNOMED CT</a>#24484000)</span></p><p><b>code</b>: Chronic kidney disease stage 3B (disorder) <span style=\"background: LightGoldenRodYellow; margin: 4px; border: 1px solid khaki\"> (<a href=\"https://browser.ihtsdotools.org/\">SNOMED CT</a>#700379002)</span></p><p><b>subject</b>: <a href=\"Patient-repop-tester.html\">Patient/repop-tester</a></p><p><b>onset</b>: 2022-05-10</p><p><b>recordedDate</b>: 2022-05-10</p></div>"
        }, 
        "verificationStatus": {
          "coding": [
            {
              "code": "confirmed", 
              "system": "http://terminology.hl7.org/CodeSystem/condition-ver-status"
            }
          ]
        }, 
        "clinicalStatus": {
          "coding": [
            {
              "code": "active", 
              "system": "http://terminology.hl7.org/CodeSystem/condition-clinical"
            }
          ]
        }, 
        "meta": {
          "profile": [
            "http://hl7.org.au/fhir/core/StructureDefinition/au-core-condition"
          ], 
          "source": "#2MGUQkGFZJAQlI0g", 
          "versionId": "1", 
          "lastUpdated": "2025-05-21T02:23:33.199+00:00"
        }, 
        "recordedDate": "2022-05-10", 
        "id": "ckd-repop-patient", 
        "subject": {
          "reference": "Patient/repop-patient"
        }
      }, 
      "request": {
        "url": "Condition/ckd-repop-patient", 
        "method": "PUT"
      }
    }, 
    {
      "resource": {
        "category": [
          {
            "coding": [
              {
                "code": "problem-list-item", 
                "system": "http://terminology.hl7.org/CodeSystem/condition-category", 
                "display": "Problem List Item"
              }
            ]
          }
        ], 
        "code": {
          "coding": [
            {
              "code": "44054006", 
              "system": "http://snomed.info/sct", 
              "display": "Diabetes mellitus type 2 (disorder)"
            }
          ]
        }, 
        "severity": {
          "coding": [
            {
              "code": "24484000", 
              "system": "http://snomed.info/sct", 
              "display": "Severe"
            }
          ]
        }, 
        "resourceType": "Condition", 
        "onsetDateTime": "2022-05-10", 
        "id": "diabetes-repop-patient", 
        "meta": {
          "profile": [
            "http://hl7.org.au/fhir/core/StructureDefinition/au-core-condition"
          ], 
          "source": "#2MGUQkGFZJAQlI0g", 
          "versionId": "1", 
          "lastUpdated": "2025-05-21T02:23:33.199+00:00"
        }, 
        "recordedDate": "2022-05-10", 
        "clinicalStatus": {
          "coding": [
            {
              "code": "active", 
              "system": "http://terminology.hl7.org/CodeSystem/condition-clinical"
            }
          ]
        }, 
        "verificationStatus": {
          "coding": [
            {
              "code": "confirmed", 
              "system": "http://terminology.hl7.org/CodeSystem/condition-ver-status"
            }
          ]
        }, 
        "subject": {
          "reference": "Patient/repop-patient"
        }
      }, 
      "request": {
        "url": "Condition/diabetes-repop-patient", 
        "method": "PUT"
      }
    }, 
    {
      "resource": {
        "category": [
          {
            "coding": [
              {
                "code": "problem-list-item", 
                "system": "http://terminology.hl7.org/CodeSystem/condition-category", 
                "display": "Problem List Item"
              }
            ]
          }
        ], 
        "code": {
          "coding": [
            {
              "code": "38341003", 
              "system": "http://snomed.info/sct", 
              "display": "Hypertensive disorder, systemic arterial (disorder)"
            }
          ]
        }, 
        "severity": {
          "coding": [
            {
              "code": "24484000", 
              "system": "http://snomed.info/sct", 
              "display": "Severe"
            }
          ]
        }, 
        "resourceType": "Condition", 
        "onsetDateTime": "2022-05-10", 
        "id": "hypertension-repop-patient", 
        "meta": {
          "profile": [
            "http://hl7.org.au/fhir/core/StructureDefinition/au-core-condition"
          ], 
          "source": "#2MGUQkGFZJAQlI0g", 
          "versionId": "1", 
          "lastUpdated": "2025-05-21T02:23:33.199+00:00"
        }, 
        "recordedDate": "2022-05-10", 
        "clinicalStatus": {
          "coding": [
            {
              "code": "active", 
              "system": "http://terminology.hl7.org/CodeSystem/condition-clinical"
            }
          ]
        }, 
        "verificationStatus": {
          "coding": [
            {
              "code": "confirmed", 
              "system": "http://terminology.hl7.org/CodeSystem/condition-ver-status"
            }
          ]
        }, 
        "subject": {
          "reference": "Patient/repop-patient"
        }
      }, 
      "request": {
        "url": "Condition/hypertension-repop-patient", 
        "method": "PUT"
      }
    }, 
    {
      "resource": {
        "category": [
          {
            "coding": [
              {
                "code": "problem-list-item", 
                "system": "http://terminology.hl7.org/CodeSystem/condition-category", 
                "display": "Problem List Item"
              }
            ]
          }
        ], 
        "code": {
          "coding": [
            {
              "code": "304213008", 
              "system": "http://snomed.info/sct", 
              "display": "Remittent fever (finding)"
            }
          ]
        }, 
        "severity": {
          "coding": [
            {
              "code": "24484000", 
              "system": "http://snomed.info/sct", 
              "display": "Severe"
            }
          ]
        }, 
        "resourceType": "Condition", 
        "onsetDateTime": "2022-05-10", 
        "id": "remittent-fever-repop-patient", 
        "meta": {
          "profile": [
            "http://hl7.org.au/fhir/core/StructureDefinition/au-core-condition"
          ], 
          "source": "#2MGUQkGFZJAQlI0g", 
          "versionId": "1", 
          "lastUpdated": "2025-05-21T02:23:33.199+00:00"
        }, 
        "recordedDate": "2022-05-10", 
        "clinicalStatus": {
          "coding": [
            {
              "code": "active", 
              "system": "http://terminology.hl7.org/CodeSystem/condition-clinical"
            }
          ]
        }, 
        "verificationStatus": {
          "coding": [
            {
              "code": "confirmed", 
              "system": "http://terminology.hl7.org/CodeSystem/condition-ver-status"
            }
          ]
        }, 
        "subject": {
          "reference": "Patient/repop-patient"
        }
      }, 
      "request": {
        "url": "Condition/remittent-fever-repop-patient", 
        "method": "PUT"
      }
    }, 
    {
      "resource": {
        "category": [
          {
            "coding": [
              {
                "code": "problem-list-item", 
                "system": "http://terminology.hl7.org/CodeSystem/condition-category", 
                "display": "Problem List Item"
              }
            ]
          }
        ], 
        "code": {
          "coding": [
            {
              "code": "195967001", 
              "system": "http://snomed.info/sct", 
              "display": "Asthma (disorder)"
            }
          ]
        }, 
        "severity": {
          "coding": [
            {
              "code": "24484000", 
              "system": "http://snomed.info/sct", 
              "display": "Severe"
            }
          ]
        }, 
        "resourceType": "Condition", 
        "onsetDateTime": "2022-05-10", 
        "id": "asthma-repop-patient", 
        "meta": {
          "profile": [
            "http://hl7.org.au/fhir/core/StructureDefinition/au-core-condition"
          ], 
          "source": "#2MGUQkGFZJAQlI0g", 
          "versionId": "1", 
          "lastUpdated": "2025-05-21T02:23:33.199+00:00"
        }, 
        "recordedDate": "2022-05-10", 
        "clinicalStatus": {
          "coding": [
            {
              "code": "active", 
              "system": "http://terminology.hl7.org/CodeSystem/condition-clinical"
            }
          ]
        }, 
        "verificationStatus": {
          "coding": [
            {
              "code": "confirmed", 
              "system": "http://terminology.hl7.org/CodeSystem/condition-ver-status"
            }
          ]
        }, 
        "subject": {
          "reference": "Patient/repop-patient"
        }
      }, 
      "request": {
        "url": "Condition/asthma-repop-patient", 
        "method": "PUT"
      }
    }, 
    {
      "resource": {
        "category": [
          {
            "coding": [
              {
                "code": "problem-list-item", 
                "system": "http://terminology.hl7.org/CodeSystem/condition-category", 
                "display": "Problem List Item"
              }
            ]
          }
        ], 
        "code": {
          "coding": [
            {
              "code": "13645005", 
              "system": "http://snomed.info/sct", 
              "display": "Chronic obstructive lung disease (disorder)"
            }
          ]
        }, 
        "severity": {
          "coding": [
            {
              "code": "24484000", 
              "system": "http://snomed.info/sct", 
              "display": "Severe"
            }
          ]
        }, 
        "resourceType": "Condition", 
        "onsetDateTime": "2022-05-10", 
        "id": "copd-repop-patient", 
        "meta": {
          "profile": [
            "http://hl7.org.au/fhir/core/StructureDefinition/au-core-condition"
          ], 
          "source": "#2MGUQkGFZJAQlI0g", 
          "versionId": "1", 
          "lastUpdated": "2025-05-21T02:23:33.199+00:00"
        }, 
        "recordedDate": "2022-05-10", 
        "clinicalStatus": {
          "coding": [
            {
              "code": "active", 
              "system": "http://terminology.hl7.org/CodeSystem/condition-clinical"
            }
          ]
        }, 
        "verificationStatus": {
          "coding": [
            {
              "code": "confirmed", 
              "system": "http://terminology.hl7.org/CodeSystem/condition-ver-status"
            }
          ]
        }, 
        "subject": {
          "reference": "Patient/repop-patient"
        }
      }, 
      "request": {
        "url": "Condition/copd-repop-patient", 
        "method": "PUT"
      }
    }, 
    {
      "resource": {
        "category": [
          {
            "coding": [
              {
                "code": "problem-list-item", 
                "system": "http://terminology.hl7.org/CodeSystem/condition-category", 
                "display": "Problem List Item"
              }
            ]
          }
        ], 
        "code": {
          "coding": [
            {
              "code": "414545008", 
              "system": "http://snomed.info/sct", 
              "display": "Ischemic heart disease (disorder)"
            }
          ]
        }, 
        "severity": {
          "coding": [
            {
              "code": "24484000", 
              "system": "http://snomed.info/sct", 
              "display": "Severe"
            }
          ]
        }, 
        "resourceType": "Condition", 
        "onsetDateTime": "2022-05-10", 
        "id": "ischaemic-heart-disease-repop-patient", 
        "meta": {
          "profile": [
            "http://hl7.org.au/fhir/core/StructureDefinition/au-core-condition"
          ], 
          "source": "#2MGUQkGFZJAQlI0g", 
          "versionId": "1", 
          "lastUpdated": "2025-05-21T02:23:33.199+00:00"
        }, 
        "recordedDate": "2022-05-10", 
        "clinicalStatus": {
          "coding": [
            {
              "code": "active", 
              "system": "http://terminology.hl7.org/CodeSystem/condition-clinical"
            }
          ]
        }, 
        "verificationStatus": {
          "coding": [
            {
              "code": "confirmed", 
              "system": "http://terminology.hl7.org/CodeSystem/condition-ver-status"
            }
          ]
        }, 
        "subject": {
          "reference": "Patient/repop-patient"
        }
      }, 
      "request": {
        "url": "Condition/ischaemic-heart-disease-repop-patient", 
        "method": "PUT"
      }
    }, 
    {
      "resource": {
        "category": [
          {
            "coding": [
              {
                "code": "problem-list-item", 
                "system": "http://terminology.hl7.org/CodeSystem/condition-category", 
                "display": "Problem List Item"
              }
            ]
          }
        ], 
        "code": {
          "coding": [
            {
              "code": "49436004", 
              "system": "http://snomed.info/sct", 
              "display": "Atrial fibrillation (disorder)"
            }
          ]
        }, 
        "severity": {
          "coding": [
            {
              "code": "24484000", 
              "system": "http://snomed.info/sct", 
              "display": "Severe"
            }
          ]
        }, 
        "resourceType": "Condition", 
        "onsetDateTime": "2022-05-10", 
        "id": "atrial-fibrillation-repop-patient", 
        "meta": {
          "profile": [
            "http://hl7.org.au/fhir/core/StructureDefinition/au-core-condition"
          ], 
          "source": "#2MGUQkGFZJAQlI0g", 
          "versionId": "1", 
          "lastUpdated": "2025-05-21T02:23:33.199+00:00"
        }, 
        "recordedDate": "2022-05-10", 
        "clinicalStatus": {
          "coding": [
            {
              "code": "active", 
              "system": "http://terminology.hl7.org/CodeSystem/condition-clinical"
            }
          ]
        }, 
        "verificationStatus": {
          "coding": [
            {
              "code": "confirmed", 
              "system": "http://terminology.hl7.org/CodeSystem/condition-ver-status"
            }
          ]
        }, 
        "subject": {
          "reference": "Patient/repop-patient"
        }
      }, 
      "request": {
        "url": "Condition/atrial-fibrillation-repop-patient", 
        "method": "PUT"
      }
    }, 
    {
      "resource": {
        "category": [
          {
            "coding": [
              {
                "code": "problem-list-item", 
                "system": "http://terminology.hl7.org/CodeSystem/condition-category", 
                "display": "Problem List Item"
              }
            ]
          }
        ], 
        "code": {
          "coding": [
            {
              "code": "230690007", 
              "system": "http://snomed.info/sct", 
              "display": "Stroke (disorder)"
            }
          ]
        }, 
        "severity": {
          "coding": [
            {
              "code": "24484000", 
              "system": "http://snomed.info/sct", 
              "display": "Severe"
            }
          ]
        }, 
        "resourceType": "Condition", 
        "onsetDateTime": "2022-05-10", 
        "id": "stroke-repop-patient", 
        "meta": {
          "profile": [
            "http://hl7.org.au/fhir/core/StructureDefinition/au-core-condition"
          ], 
          "source": "#2MGUQkGFZJAQlI0g", 
          "versionId": "1", 
          "lastUpdated": "2025-05-21T02:23:33.199+00:00"
        }, 
        "recordedDate": "2022-05-10", 
        "clinicalStatus": {
          "coding": [
            {
              "code": "active", 
              "system": "http://terminology.hl7.org/CodeSystem/condition-clinical"
            }
          ]
        }, 
        "verificationStatus": {
          "coding": [
            {
              "code": "confirmed", 
              "system": "http://terminology.hl7.org/CodeSystem/condition-ver-status"
            }
          ]
        }, 
        "subject": {
          "reference": "Patient/repop-patient"
        }
      }, 
      "request": {
        "url": "Condition/stroke-repop-patient", 
        "method": "PUT"
      }
    }, 
    {
      "resource": {
        "category": [
          {
            "coding": [
              {
                "code": "problem-list-item", 
                "system": "http://terminology.hl7.org/CodeSystem/condition-category", 
                "display": "Problem List Item"
              }
            ]
          }
        ], 
        "code": {
          "coding": [
            {
              "code": "396275006", 
              "system": "http://snomed.info/sct", 
              "display": "Osteoarthritis (disorder)"
            }
          ]
        }, 
        "severity": {
          "coding": [
            {
              "code": "24484000", 
              "system": "http://snomed.info/sct", 
              "display": "Severe"
            }
          ]
        }, 
        "resourceType": "Condition", 
        "onsetDateTime": "2022-05-10", 
        "id": "osteoarthritis-repop-patient", 
        "meta": {
          "profile": [
            "http://hl7.org.au/fhir/core/StructureDefinition/au-core-condition"
          ], 
          "source": "#2MGUQkGFZJAQlI0g", 
          "versionId": "1", 
          "lastUpdated": "2025-05-21T02:23:33.199+00:00"
        }, 
        "recordedDate": "2022-05-10", 
        "clinicalStatus": {
          "coding": [
            {
              "code": "active", 
              "system": "http://terminology.hl7.org/CodeSystem/condition-clinical"
            }
          ]
        }, 
        "verificationStatus": {
          "coding": [
            {
              "code": "confirmed", 
              "system": "http://terminology.hl7.org/CodeSystem/condition-ver-status"
            }
          ]
        }, 
        "subject": {
          "reference": "Patient/repop-patient"
        }
      }, 
      "request": {
        "url": "Condition/osteoarthritis-repop-patient", 
        "method": "PUT"
      }
    }, 
    {
      "resource": {
        "category": [
          {
            "coding": [
              {
                "code": "problem-list-item", 
                "system": "http://terminology.hl7.org/CodeSystem/condition-category", 
                "display": "Problem List Item"
              }
            ]
          }
        ], 
        "code": {
          "coding": [
            {
              "code": "35489007", 
              "system": "http://snomed.info/sct", 
              "display": "Depressive disorder (disorder)"
            }
          ]
        }, 
        "severity": {
          "coding": [
            {
              "code": "24484000", 
              "system": "http://snomed.info/sct", 
              "display": "Severe"
            }
          ]
        }, 
        "resourceType": "Condition", 
        "onsetDateTime": "2022-05-10", 
        "id": "depression-repop-patient", 
        "meta": {
          "profile": [
            "http://hl7.org.au/fhir/core/StructureDefinition/au-core-condition"
          ], 
          "source": "#2MGUQkGFZJAQlI0g", 
          "versionId": "1", 
          "lastUpdated": "2025-05-21T02:23:33.199+00:00"
        }, 
        "recordedDate": "2022-05-10", 
        "clinicalStatus": {
          "coding": [
            {
              "code": "active", 
              "system": "http://terminology.hl7.org/CodeSystem/condition-clinical"
            }
          ]
        }, 
        "verificationStatus": {
          "coding": [
            {
              "code": "confirmed", 
              "system": "http://terminology.hl7.org/CodeSystem/condition-ver-status"
            }
          ]
        }, 
        "subject": {
          "reference": "Patient/repop-patient"
        }
      }, 
      "request": {
        "url": "Condition/depression-repop-patient", 
        "method": "PUT"
      }
    }, 
    {
      "resource": {
        "resourceType": "AllergyIntolerance", 
        "meta": {
          "source": "#2MGUQkGFZJAQlI0g", 
          "versionId": "1", 
          "lastUpdated": "2025-05-21T02:23:33.199+00:00"
        }, 
        "patient": {
          "type": "Patient", 
          "display": "Mrs. Smart Form", 
          "reference": "Patient/repop-patient"
        }, 
        "id": "533a-repop-patient", 
        "code": {
          "text": "Bee venom", 
          "coding": [
            {
              "code": "288328004", 
              "system": "http://snomed.info/sct", 
              "display": "Bee venom"
            }
          ]
        }
      }, 
      "request": {
        "url": "AllergyIntolerance/533a-repop-patient", 
        "method": "PUT"
      }
    }, 
    {
      "resource": {
        "resourceType": "AllergyIntolerance", 
        "meta": {
          "source": "#2MGUQkGFZJAQlI0g", 
          "versionId": "1", 
          "lastUpdated": "2025-05-21T02:23:33.199+00:00"
        }, 
        "patient": {
          "type": "Patient", 
          "display": "Mrs. Smart Form", 
          "reference": "Patient/repop-patient"
        }, 
        "id": "534a-repop-patient", 
        "code": {
          "text": "Penicillin", 
          "coding": [
            {
              "code": "764146007", 
              "system": "http://snomed.info/sct", 
              "display": "Penicillin"
            }
          ]
        }
      }, 
      "request": {
        "url": "AllergyIntolerance/534a-repop-patient", 
        "method": "PUT"
      }
    }, 
    {
      "resource": {
        "resourceType": "AllergyIntolerance", 
        "meta": {
          "source": "#2MGUQkGFZJAQlI0g", 
          "versionId": "1", 
          "lastUpdated": "2025-05-21T02:23:33.199+00:00"
        }, 
        "patient": {
          "type": "Patient", 
          "display": "Mrs. Smart Form", 
          "reference": "Patient/repop-patient"
        }, 
        "id": "543a-repop-patient", 
        "code": {
          "text": "Aspirin", 
          "coding": [
            {
              "code": "387458008", 
              "system": "http://snomed.info/sct", 
              "display": "Aspirin"
            }
          ]
        }
      }, 
      "request": {
        "url": "AllergyIntolerance/543a-repop-patient", 
        "method": "PUT"
      }
    }, 
    {
      "resource": {
        "reaction": [
          {
            "manifestation": [
              {
                "text": "Rash", 
                "coding": [
                  {
                    "code": "271807003", 
                    "system": "http://snomed.info/sct", 
                    "display": "Rash"
                  }
                ]
              }
            ]
          }
        ], 
        "code": {
          "text": "Barley pollen", 
          "coding": [
            {
              "code": "710715008", 
              "system": "http://snomed.info/sct", 
              "display": "Barley pollen"
            }
          ]
        }, 
        "patient": {
          "type": "Patient", 
          "display": "Mrs. Smart Form", 
          "reference": "Patient/repop-patient"
        }, 
        "resourceType": "AllergyIntolerance", 
        "meta": {
          "source": "#2MGUQkGFZJAQlI0g", 
          "versionId": "1", 
          "lastUpdated": "2025-05-21T02:23:33.199+00:00"
        }, 
        "id": "562a-repop-patient"
      }, 
      "request": {
        "url": "AllergyIntolerance/562a-repop-patient", 
        "method": "PUT"
      }
    }, 
    {
      "resource": {
        "reaction": [
          {
            "manifestation": [
              {
                "text": "Bone pain", 
                "coding": [
                  {
                    "code": "12584003", 
                    "system": "http://snomed.info/sct", 
                    "display": "Bone pain"
                  }
                ]
              }
            ]
          }
        ], 
        "code": {
          "text": "Gluten", 
          "coding": [
            {
              "code": "89811004", 
              "system": "http://snomed.info/sct", 
              "display": "Gluten"
            }
          ]
        }, 
        "patient": {
          "type": "Patient", 
          "display": "Mrs. Smart Form", 
          "reference": "Patient/repop-patient"
        }, 
        "resourceType": "AllergyIntolerance", 
        "meta": {
          "source": "#2MGUQkGFZJAQlI0g", 
          "versionId": "1", 
          "lastUpdated": "2025-05-21T02:23:33.199+00:00"
        }, 
        "id": "574a-repop-patient"
      }, 
      "request": {
        "url": "AllergyIntolerance/574a-repop-patient", 
        "method": "PUT"
      }
    }, 
    {
      "resource": {
        "code": {
          "text": "Cow's milk", 
          "coding": [
            {
              "code": "3718001", 
              "system": "http://snomed.info/sct", 
              "display": "Cow's milk"
            }
          ]
        }, 
        "patient": {
          "type": "Patient", 
          "display": "Mrs. Smart Form", 
          "reference": "Patient/repop-patient"
        }, 
        "resourceType": "AllergyIntolerance", 
        "note": [
          {
            "text": "Rash"
          }
        ], 
        "meta": {
          "profile": [
            "http://hl7.org.au/fhir/core/StructureDefinition/au-core-allergyintolerance"
          ], 
          "source": "#2MGUQkGFZJAQlI0g", 
          "versionId": "1", 
          "lastUpdated": "2025-05-21T02:23:33.199+00:00"
        }, 
        "id": "585a-repop-patient"
      }, 
      "request": {
        "url": "AllergyIntolerance/585a-repop-patient", 
        "method": "PUT"
      }
    }, 
    {
      "resource": {
        "resourceType": "AllergyIntolerance", 
        "meta": {
          "profile": [
            "http://hl7.org.au/fhir/core/StructureDefinition/au-core-allergyintolerance"
          ], 
          "source": "#2MGUQkGFZJAQlI0g", 
          "versionId": "1", 
          "lastUpdated": "2025-05-21T02:23:33.199+00:00"
        }, 
        "patient": {
          "type": "Patient", 
          "display": "Mrs. Smart Form", 
          "reference": "Patient/repop-patient"
        }, 
        "id": "590a-repop-patient", 
        "code": {
          "text": "Hay dust", 
          "coding": [
            {
              "code": "255703002", 
              "system": "http://snomed.info/sct", 
              "display": "Hay dust"
            }
          ]
        }
      }, 
      "request": {
        "url": "AllergyIntolerance/590a-repop-patient", 
        "method": "PUT"
      }
    }, 
    {
      "resource": {
        "reaction": [
          {
            "manifestation": [
              {
                "text": "Rash", 
                "coding": [
                  {
                    "code": "271807003", 
                    "system": "http://snomed.info/sct", 
                    "display": "Rash"
                  }
                ]
              }
            ]
          }
        ], 
        "code": {
          "text": "Bee pollen", 
          "coding": [
            {
              "code": "412583005", 
              "system": "http://snomed.info/sct", 
              "display": "Bee pollen"
            }
          ]
        }, 
        "patient": {
          "type": "Patient", 
          "display": "Mrs. Smart Form", 
          "reference": "Patient/repop-patient"
        }, 
        "resourceType": "AllergyIntolerance", 
        "clinicalStatus": {
          "coding": [
            {
              "code": "active", 
              "system": "http://terminology.hl7.org/CodeSystem/allergyintolerance-clinical"
            }
          ]
        }, 
        "note": [
          {
            "text": "comment"
          }
        ], 
        "meta": {
          "profile": [
            "http://hl7.org.au/fhir/core/StructureDefinition/au-core-allergyintolerance"
          ], 
          "source": "#2MGUQkGFZJAQlI0g", 
          "versionId": "1", 
          "lastUpdated": "2025-05-21T02:23:33.199+00:00"
        }, 
        "id": "604a-repop-patient"
      }, 
      "request": {
        "url": "AllergyIntolerance/604a-repop-patient", 
        "method": "PUT"
      }
    }, 
    {
      "resource": {
        "reaction": [
          {
            "manifestation": [
              {
                "text": "Sneezing", 
                "coding": [
                  {
                    "code": "76067001", 
                    "system": "http://snomed.info/sct", 
                    "display": "Sneezing"
                  }
                ]
              }
            ]
          }
        ], 
        "code": {
          "text": "Dried flowers", 
          "coding": [
            {
              "code": "228659004", 
              "system": "http://snomed.info/sct", 
              "display": "Dried flowers"
            }
          ]
        }, 
        "patient": {
          "type": "Patient", 
          "display": "Mrs. Smart Form", 
          "reference": "Patient/repop-patient"
        }, 
        "resourceType": "AllergyIntolerance", 
        "clinicalStatus": {
          "coding": [
            {
              "code": "active", 
              "system": "http://terminology.hl7.org/CodeSystem/allergyintolerance-clinical"
            }
          ]
        }, 
        "note": [
          {
            "text": "Hayfever"
          }
        ], 
        "meta": {
          "profile": [
            "http://hl7.org.au/fhir/core/StructureDefinition/au-core-allergyintolerance"
          ], 
          "source": "#2MGUQkGFZJAQlI0g", 
          "versionId": "1", 
          "lastUpdated": "2025-05-21T02:23:33.199+00:00"
        }, 
        "id": "614a-repop-patient"
      }, 
      "request": {
        "url": "AllergyIntolerance/614a-repop-patient", 
        "method": "PUT"
      }
    }, 
    {
      "resource": {
        "reaction": [
          {
            "manifestation": [
              {
                "text": "Sneezing", 
                "coding": [
                  {
                    "code": "76067001", 
                    "system": "http://snomed.info/sct", 
                    "display": "Sneezing"
                  }
                ]
              }
            ]
          }
        ], 
        "code": {
          "text": "Pollen", 
          "coding": [
            {
              "code": "256259004", 
              "system": "http://snomed.info/sct", 
              "display": "Pollen"
            }
          ]
        }, 
        "patient": {
          "type": "Patient", 
          "display": "Mrs. Smart Form", 
          "reference": "Patient/repop-patient"
        }, 
        "resourceType": "AllergyIntolerance", 
        "clinicalStatus": {
          "coding": [
            {
              "code": "active", 
              "system": "http://terminology.hl7.org/CodeSystem/allergyintolerance-clinical"
            }
          ]
        }, 
        "meta": {
          "profile": [
            "http://hl7.org.au/fhir/core/StructureDefinition/au-core-allergyintolerance"
          ], 
          "source": "#2MGUQkGFZJAQlI0g", 
          "versionId": "1", 
          "lastUpdated": "2025-05-21T02:23:33.199+00:00"
        }, 
        "id": "676a-repop-patient"
      }, 
      "request": {
        "url": "AllergyIntolerance/676a-repop-patient", 
        "method": "PUT"
      }
    }, 
    {
      "resource": {
        "status": "completed", 
        "patient": {
          "type": "Patient", 
          "display": "Mrs. Smart Form", 
          "reference": "Patient/repop-patient"
        }, 
        "resourceType": "Immunization", 
        "vaccineCode": {
          "text": "AstraZeneca Vaxzevria", 
          "coding": [
            {
              "code": "COVAST", 
              "version": "20240207", 
              "system": "https://www.humanservices.gov.au/organisations/health-professionals/enablers/air-vaccine-code-formats", 
              "display": "AstraZeneca Vaxzevria"
            }
          ]
        }, 
        "note": [
          {
            "text": "comment"
          }
        ], 
        "meta": {
          "profile": [
            "http://hl7.org.au/fhir/core/StructureDefinition/au-core-immunization"
          ], 
          "source": "#2MGUQkGFZJAQlI0g", 
          "versionId": "1", 
          "lastUpdated": "2025-05-21T02:23:33.199+00:00"
        }, 
        "occurrenceDateTime": "2025-01-15", 
        "protocolApplied": [
          {
            "doseNumberString": "2"
          }
        ], 
        "id": "606a-repop-patient"
      }, 
      "request": {
        "url": "Immunization/606a-repop-patient", 
        "method": "PUT"
      }
    }, 
    {
      "resource": {
        "status": "completed", 
        "patient": {
          "type": "Patient", 
          "display": "Mrs. Smart Form", 
          "reference": "Patient/repop-patient"
        }, 
        "resourceType": "Immunization", 
        "vaccineCode": {
          "text": "AstraZeneca Vaxzevria", 
          "coding": [
            {
              "code": "COVAST", 
              "version": "20240207", 
              "system": "https://www.humanservices.gov.au/organisations/health-professionals/enablers/air-vaccine-code-formats", 
              "display": "AstraZeneca Vaxzevria"
            }
          ]
        }, 
        "note": [
          {
            "text": "first one"
          }
        ], 
        "meta": {
          "profile": [
            "http://hl7.org.au/fhir/core/StructureDefinition/au-core-immunization"
          ], 
          "source": "#2MGUQkGFZJAQlI0g", 
          "versionId": "1", 
          "lastUpdated": "2025-05-21T02:23:33.199+00:00"
        }, 
        "occurrenceDateTime": "2020-12-15", 
        "protocolApplied": [
          {
            "doseNumberString": "1"
          }
        ], 
        "id": "609a-repop-patient"
      }, 
      "request": {
        "url": "Immunization/609a-repop-patient", 
        "method": "PUT"
      }
    }, 
    {
      "resource": {
        "status": "completed", 
        "patient": {
          "type": "Patient", 
          "display": "Mrs. Smart Form", 
          "reference": "Patient/repop-patient"
        }, 
        "resourceType": "Immunization", 
        "vaccineCode": {
          "text": "Diphtheria + tetanus + pertussis 3 component vaccine", 
          "coding": [
            {
              "code": "837621000168102", 
              "version": "http://snomed.info/sct/32506021000036107/version/20250131", 
              "system": "http://snomed.info/sct", 
              "display": "Diphtheria + tetanus + pertussis 3 component vaccine"
            }
          ]
        }, 
        "note": [
          {
            "text": "test"
          }
        ], 
        "meta": {
          "profile": [
            "http://hl7.org.au/fhir/core/StructureDefinition/au-core-immunization"
          ], 
          "source": "#2MGUQkGFZJAQlI0g", 
          "versionId": "1", 
          "lastUpdated": "2025-05-21T02:23:33.199+00:00"
        }, 
        "protocolApplied": [
          {
            "doseNumberString": "3"
          }
        ], 
        "id": "432a-repop-patient"
      }, 
      "request": {
        "url": "Immunization/432a-repop-patient", 
        "method": "PUT"
      }
    }, 
    {
      "resource": {
        "status": "completed", 
        "medicationReference": {
          "reference": "#medication"
        }, 
        "resourceType": "MedicationStatement", 
        "dosage": [
          {
            "timing": {
              "code": {
                "text": "every 2 hours", 
                "coding": [
                  {
                    "code": "Q2H", 
                    "system": "http://terminology.hl7.org/CodeSystem/v3-GTSAbbreviation", 
                    "display": "every 2 hours"
                  }
                ]
              }
            }, 
            "route": {
              "text": "Oral route", 
              "coding": [
                {
                  "code": "26643006", 
                  "system": "http://snomed.info/sct", 
                  "display": "Oral route"
                }
              ]
            }, 
            "doseAndRate": [
              {
                "doseQuantity": {
                  "code": "mg", 
                  "unit": "mg", 
                  "value": 30, 
                  "system": "http://unitsofmeasure.org"
                }
              }
            ]
          }
        ], 
        "note": [
          {
            "text": "comment"
          }
        ], 
        "contained": [
          {
            "code": {
              "text": "Amoxil", 
              "coding": [
                {
                  "code": "3738011000036101", 
                  "system": "http://snomed.info/sct", 
                  "display": "Amoxil"
                }
              ]
            }, 
            "form": {
              "text": "Tablet", 
              "coding": [
                {
                  "code": "421026006", 
                  "system": "http://snomed.info/sct", 
                  "display": "Tablet"
                }
              ]
            }, 
            "resourceType": "Medication", 
            "meta": {
              "profile": [
                "http://hl7.org.au/fhir/core/StructureDefinition/au-core-medication"
              ]
            }, 
            "id": "medication", 
            "ingredient": [
              {
                "strength": {
                  "numerator": {
                    "code": "mg", 
                    "unit": "mg", 
                    "value": 30, 
                    "system": "http://unitsofmeasure.org"
                  }
                }, 
                "itemCodeableConcept": {
                  "text": "Amoxil", 
                  "coding": [
                    {
                      "code": "3738011000036101", 
                      "system": "http://snomed.info/sct", 
                      "display": "Amoxil"
                    }
                  ]
                }
              }
            ]
          }
        ], 
        "meta": {
          "profile": [
            "http://hl7.org.au/fhir/StructureDefinition/au-medicationstatement"
          ], 
          "source": "#2MGUQkGFZJAQlI0g", 
          "versionId": "1", 
          "lastUpdated": "2025-05-21T02:23:33.199+00:00"
        }, 
        "reasonCode": [
          {
            "text": "Glucose in blood specimen above reference range", 
            "coding": [
              {
                "code": "444780001", 
                "system": "http://snomed.info/sct", 
                "display": "Glucose in blood specimen above reference range"
              }
            ]
          }, 
          {
            "text": "Glucose in blood specimen above reference range", 
            "coding": [
              {
                "code": "444780001", 
                "system": "http://snomed.info/sct", 
                "display": "Glucose in blood specimen above reference range"
              }
            ]
          }
        ], 
        "id": "repop-test-medication-1", 
        "subject": {
          "type": "Patient", 
          "display": "Clever Form", 
          "reference": "Patient/repop-patient"
        }
      }, 
      "request": {
        "url": "MedicationStatement/repop-test-medication-1", 
        "method": "PUT"
      }
    }, 
    {
      "resource": {
        "status": "completed", 
        "medicationReference": {
          "reference": "#medication"
        }, 
        "resourceType": "MedicationStatement", 
        "dosage": [
          {
            "timing": {
              "code": {
                "text": "QD", 
                "coding": [
                  {
                    "code": "QD", 
                    "system": "http://terminology.hl7.org/CodeSystem/v3-GTSAbbreviation", 
                    "display": "QD"
                  }
                ]
              }
            }, 
            "route": {
              "text": "Oral route", 
              "coding": [
                {
                  "code": "26643006", 
                  "system": "http://snomed.info/sct", 
                  "display": "Oral route"
                }
              ]
            }, 
            "doseAndRate": [
              {
                "doseQuantity": {
                  "code": "mg", 
                  "unit": "mg", 
                  "value": 250, 
                  "system": "http://unitsofmeasure.org"
                }
              }
            ]
          }
        ], 
        "note": [
          {
            "text": "hope it works"
          }
        ], 
        "contained": [
          {
            "code": {
              "text": "Amoxil", 
              "coding": [
                {
                  "code": "3738011000036101", 
                  "system": "http://snomed.info/sct", 
                  "display": "Amoxil"
                }
              ]
            }, 
            "form": {
              "text": "Capsule", 
              "coding": [
                {
                  "code": "385049006", 
                  "system": "http://snomed.info/sct", 
                  "display": "Capsule"
                }
              ]
            }, 
            "resourceType": "Medication", 
            "meta": {
              "profile": [
                "http://hl7.org.au/fhir/core/StructureDefinition/au-core-medication"
              ]
            }, 
            "id": "medication", 
            "ingredient": [
              {
                "strength": {
                  "numerator": {
                    "code": "mg", 
                    "unit": "mg", 
                    "value": 250, 
                    "system": "http://unitsofmeasure.org"
                  }
                }, 
                "itemCodeableConcept": {
                  "text": "Amoxil", 
                  "coding": [
                    {
                      "code": "3738011000036101", 
                      "system": "http://snomed.info/sct", 
                      "display": "Amoxil"
                    }
                  ]
                }
              }
            ]
          }
        ], 
        "meta": {
          "profile": [
            "http://hl7.org.au/fhir/StructureDefinition/au-medicationstatement"
          ], 
          "source": "#2MGUQkGFZJAQlI0g", 
          "versionId": "1", 
          "lastUpdated": "2025-05-21T02:23:33.199+00:00"
        }, 
        "reasonCode": [
          {
            "text": "Rash", 
            "coding": [
              {
                "code": "271807003", 
                "system": "http://snomed.info/sct", 
                "display": "Rash"
              }
            ]
          }, 
          {
            "text": "Fever", 
            "coding": [
              {
                "code": "386661006", 
                "system": "http://snomed.info/sct", 
                "display": "Fever"
              }
            ]
          }
        ], 
        "id": "repop-test-medication-2", 
        "subject": {
          "type": "Patient", 
          "display": "Clever Form", 
          "reference": "Patient/repop-patient"
        }
      }, 
      "request": {
        "url": "MedicationStatement/repop-test-medication-2", 
        "method": "PUT"
      }
    }
  ], 
  "type": "transaction", 
  "id": "repop-patient-transaction-bundle"
}